TITLE	
DATA TYPE	
ORIGIN	JASCO
OWNER	
DATE	16/04/20
TIME	14:57:00
SPECTROMETER/DATA SYSTEM	JASCO Corp., J-810, Rev. 1.00
RESOLUTION	
DELTAX	-0.1
XUNITS	NANOMETERS
YUNITS	CD[mdeg]
Y2UNITS	HT[V]
FIRSTX	350.0000
LASTX	222.3000
NPOINTS	1278
FIRSTY	-4.09877
MAXY	59.61034
MINY	-200.00000
XYDATA
350.0000	-4.09877	427.942
349.9000	-4.06815	427.62
349.8000	-3.9419	427.278
349.7000	-3.93346	426.911
349.6000	-3.9003	426.577
349.5000	-4.00783	426.24
349.4000	-4.04449	425.922
349.3000	-4.06308	425.598
349.2000	-4.04216	425.265
349.1000	-4.06614	424.939
349.0000	-4.17702	424.612
348.9000	-4.25896	424.288
348.8000	-4.29528	423.972
348.7000	-4.32685	423.654
348.6000	-4.26615	423.339
348.5000	-4.23006	423.008
348.4000	-4.27052	422.674
348.3000	-4.33225	422.344
348.2000	-4.39366	422.008
348.1000	-4.48495	421.69
348.0000	-4.48142	421.379
347.9000	-4.59704	421.063
347.8000	-4.55507	420.743
347.7000	-4.5197	420.408
347.6000	-4.54405	420.103
347.5000	-4.65206	419.787
347.4000	-4.61072	419.468
347.3000	-4.61624	419.154
347.2000	-4.61669	418.835
347.1000	-4.50637	418.528
347.0000	-4.43227	418.203
346.9000	-4.42865	417.87
346.8000	-4.44121	417.554
346.7000	-4.26746	417.244
346.6000	-4.20777	416.915
346.5000	-4.04781	416.595
346.4000	-3.95192	416.275
346.3000	-3.79573	415.948
346.2000	-3.63305	415.619
346.1000	-3.5197	415.297
346.0000	-3.47249	414.975
345.9000	-3.41493	414.66
345.8000	-3.38652	414.335
345.7000	-3.27986	414.024
345.6000	-3.2194	413.699
345.5000	-3.20682	413.377
345.4000	-3.21894	413.051
345.3000	-3.23247	412.727
345.2000	-3.156	412.412
345.1000	-3.07537	412.096
345.0000	-3.06154	411.773
344.9000	-3.03936	411.477
344.8000	-3.08636	411.176
344.7000	-3.16588	410.864
344.6000	-3.14231	410.551
344.5000	-3.07773	410.272
344.4000	-3.13391	409.962
344.3000	-3.02028	409.661
344.2000	-3.02331	409.348
344.1000	-2.98714	409.04
344.0000	-2.94488	408.728
343.9000	-2.82447	408.424
343.8000	-2.76454	408.128
343.7000	-2.73315	407.822
343.6000	-2.73015	407.519
343.5000	-2.62665	407.206
343.4000	-2.56552	406.895
343.3000	-2.42861	406.588
343.2000	-2.38516	406.277
343.1000	-2.40645	405.967
343.0000	-2.46735	405.667
342.9000	-2.53442	405.362
342.8000	-2.56742	405.036
342.7000	-2.44339	404.728
342.6000	-2.43555	404.427
342.5000	-2.30531	404.13
342.4000	-2.39259	403.833
342.3000	-2.37123	403.527
342.2000	-2.36331	403.208
342.1000	-2.39337	402.882
342.0000	-2.40339	402.588
341.9000	-2.49909	402.296
341.8000	-2.56469	402.016
341.7000	-2.59183	401.729
341.6000	-2.52656	401.428
341.5000	-2.50555	401.129
341.4000	-2.39445	400.809
341.3000	-2.41661	400.508
341.2000	-2.41569	400.187
341.1000	-2.49756	399.875
341.0000	-2.54259	399.57
340.9000	-2.49641	399.25
340.8000	-2.42629	398.94
340.7000	-2.29321	398.618
340.6000	-2.35829	398.322
340.5000	-2.46696	398.027
340.4000	-2.49265	397.721
340.3000	-2.40784	397.397
340.2000	-2.29105	397.095
340.1000	-2.26324	396.784
340.0000	-2.26582	396.472
339.9000	-2.31853	396.167
339.8000	-2.36211	395.87
339.7000	-2.41485	395.579
339.6000	-2.28589	395.284
339.5000	-2.27308	395
339.4000	-2.22352	394.705
339.3000	-2.27782	394.409
339.2000	-2.21003	394.117
339.1000	-2.18015	393.818
339.0000	-2.06405	393.517
338.9000	-1.91885	393.227
338.8000	-1.71401	392.946
338.7000	-1.61251	392.669
338.6000	-1.67471	392.381
338.5000	-1.68422	392.091
338.4000	-1.73815	391.786
338.3000	-1.8418	391.483
338.2000	-1.82148	391.201
338.1000	-1.84403	390.905
338.0000	-1.8139	390.603
337.9000	-1.87077	390.317
337.8000	-1.84494	390.03
337.7000	-1.86594	389.733
337.6000	-1.93179	389.426
337.5000	-2.00504	389.126
337.4000	-2.01561	388.845
337.3000	-2.13676	388.563
337.2000	-2.25733	388.278
337.1000	-2.39754	387.983
337.0000	-2.43523	387.676
336.9000	-2.44445	387.396
336.8000	-2.45456	387.108
336.7000	-2.32119	386.827
336.6000	-2.22463	386.535
336.5000	-2.14991	386.243
336.4000	-2.1619	385.958
336.3000	-2.1762	385.679
336.2000	-2.16756	385.375
336.1000	-2.16919	385.092
336.0000	-2.12426	384.809
335.9000	-2.10163	384.535
335.8000	-2.12765	384.255
335.7000	-2.03008	383.975
335.6000	-1.93966	383.698
335.5000	-1.82714	383.405
335.4000	-1.70127	383.139
335.3000	-1.67196	382.868
335.2000	-1.58345	382.581
335.1000	-1.5502	382.297
335.0000	-1.59135	382.038
334.9000	-1.5681	381.771
334.8000	-1.48749	381.493
334.7000	-1.32844	381.22
334.6000	-1.25334	380.939
334.5000	-1.21389	380.686
334.4000	-1.17377	380.418
334.3000	-1.09246	380.165
334.2000	-1.00606	379.904
334.1000	-1.0651	379.623
334.0000	-1.13091	379.339
333.9000	-1.15177	379.065
333.8000	-1.16305	378.793
333.7000	-1.16913	378.521
333.6000	-1.18185	378.241
333.5000	-1.28526	377.967
333.4000	-1.3251	377.719
333.3000	-1.36313	377.445
333.2000	-1.43392	377.173
333.1000	-1.42048	376.913
333.0000	-1.38674	376.65
332.9000	-1.41741	376.383
332.8000	-1.48394	376.113
332.7000	-1.53379	375.842
332.6000	-1.60388	375.581
332.5000	-1.5612	375.304
332.4000	-1.55444	375.052
332.3000	-1.56448	374.786
332.2000	-1.54941	374.529
332.1000	-1.48403	374.26
332.0000	-1.41691	373.981
331.9000	-1.39998	373.728
331.8000	-1.35373	373.459
331.7000	-1.2888	373.195
331.6000	-1.24527	372.942
331.5000	-1.22609	372.68
331.4000	-1.27976	372.424
331.3000	-1.3088	372.175
331.2000	-1.27806	371.932
331.1000	-1.27305	371.686
331.0000	-1.27489	371.422
330.9000	-1.27134	371.16
330.8000	-1.26445	370.907
330.7000	-1.19033	370.664
330.6000	-1.22063	370.414
330.5000	-1.27904	370.167
330.4000	-1.2847	369.941
330.3000	-1.24999	369.705
330.2000	-1.10928	369.457
330.1000	-1.04943	369.215
330.0000	-1.01004	368.976
329.9000	-0.922539	368.74
329.8000	-0.776956	368.499
329.7000	-0.723175	368.238
329.6000	-0.785948	367.99
329.5000	-0.769865	367.736
329.4000	-0.710341	367.505
329.3000	-0.645865	367.264
329.2000	-0.685341	367.026
329.1000	-0.69738	366.787
329.0000	-0.709019	366.549
328.9000	-0.65459	366.313
328.8000	-0.619069	366.068
328.7000	-0.560725	365.82
328.6000	-0.546205	365.572
328.5000	-0.662436	365.35
328.4000	-0.741679	365.114
328.3000	-0.776486	364.865
328.2000	-0.813428	364.626
328.1000	-0.839053	364.399
328.0000	-0.755983	364.182
327.9000	-0.622789	363.957
327.8000	-0.530602	363.708
327.7000	-0.495995	363.477
327.6000	-0.41857	363.247
327.5000	-0.384105	363.02
327.4000	-0.336319	362.798
327.3000	-0.302687	362.567
327.2000	-0.359579	362.341
327.1000	-0.349028	362.121
327.0000	-0.455594	361.895
326.9000	-0.477725	361.677
326.8000	-0.481915	361.441
326.7000	-0.453154	361.222
326.6000	-0.434558	361.001
326.5000	-0.477797	360.774
326.4000	-0.497054	360.542
326.3000	-0.511575	360.319
326.2000	-0.506465	360.103
326.1000	-0.523416	359.887
326.0000	-0.529477	359.667
325.9000	-0.489542	359.441
325.8000	-0.394017	359.224
325.7000	-0.401564	359.013
325.6000	-0.351331	358.805
325.5000	-0.314053	358.599
325.4000	-0.383344	358.389
325.3000	-0.319197	358.167
325.2000	-0.263893	357.952
325.1000	-0.153305	357.73
325.0000	-0.0403427	357.518
324.9000	0.00551758	357.315
324.8000	-0.0179764	357.117
324.7000	-0.0222015	356.914
324.6000	-0.0855164	356.707
324.5000	-0.122084	356.501
324.4000	-0.118698	356.289
324.3000	-0.141922	356.095
324.2000	-0.170917	355.898
324.1000	-0.218129	355.681
324.0000	-0.16533	355.475
323.9000	-0.12787	355.257
323.8000	-0.0800644	355.033
323.7000	-0.0156235	354.827
323.6000	0.00183411	354.632
323.5000	0.0287033	354.435
323.4000	0.0243317	354.244
323.3000	-0.00422516	354.044
323.2000	0.000234985	353.829
323.1000	0.00160522	353.625
323.0000	-0.033667	353.433
322.9000	-0.0604584	353.241
322.8000	-0.131255	353.048
322.7000	-0.192296	352.859
322.6000	-0.210591	352.671
322.5000	-0.236601	352.48
322.4000	-0.215637	352.297
322.3000	-0.294763	352.104
322.2000	-0.428326	351.927
322.1000	-0.416779	351.749
322.0000	-0.36512	351.568
321.9000	-0.392654	351.4
321.8000	-0.433592	351.227
321.7000	-0.448445	351.052
321.6000	-0.479176	350.9
321.5000	-0.453288	350.739
321.4000	-0.439943	350.577
321.3000	-0.340331	350.407
321.2000	-0.189418	350.238
321.1000	-0.0431885	350.082
321.0000	0.0632172	349.929
320.9000	0.0901886	349.783
320.8000	0.08629	349.644
320.7000	0.107355	349.501
320.6000	0.164964	349.367
320.5000	0.241896	349.227
320.4000	0.206175	349.093
320.3000	0.141678	348.953
320.2000	0.121977	348.792
320.1000	0.0979401	348.641
320.0000	0.109512	348.488
319.9000	0.155324	348.344
319.8000	0.15891	348.209
319.7000	0.146037	348.073
319.6000	0.0591141	347.925
319.5000	-0.00608978	347.786
319.4000	-0.0568802	347.647
319.3000	-0.0680984	347.503
319.2000	-0.0964508	347.349
319.1000	-0.187187	347.208
319.0000	-0.289833	347.066
318.9000	-0.292424	346.914
318.8000	-0.296495	346.761
318.7000	-0.23891	346.613
318.6000	-0.164575	346.471
318.5000	-0.177409	346.343
318.4000	-0.179411	346.206
318.3000	-0.219292	346.075
318.2000	-0.208229	345.933
318.1000	-0.179944	345.783
318.0000	-0.136804	345.645
317.9000	-0.047319	345.509
317.8000	-0.0354156	345.375
317.7000	-0.0893494	345.229
317.6000	-0.0585037	345.105
317.5000	-0.0346191	344.977
317.4000	0.0866653	344.855
317.3000	0.158101	344.729
317.2000	0.141238	344.609
317.1000	0.117572	344.48
317.0000	0.0617783	344.353
316.9000	0.0116867	344.226
316.8000	0.0271057	344.101
316.7000	0.0747543	343.976
316.6000	0.0788895	343.854
316.5000	0.0418732	343.732
316.4000	0.0215164	343.628
316.3000	0.0414246	343.508
316.2000	0.0629761	343.394
316.1000	0.173311	343.267
316.0000	0.201955	343.154
315.9000	0.22533	343.023
315.8000	0.319942	342.908
315.7000	0.41545	342.785
315.6000	0.447182	342.667
315.5000	0.526762	342.553
315.4000	0.575264	342.442
315.3000	0.577519	342.341
315.2000	0.630568	342.234
315.1000	0.623123	342.122
315.0000	0.526497	342.009
314.9000	0.533456	341.9
314.8000	0.59664	341.785
314.7000	0.605655	341.669
314.6000	0.635469	341.552
314.5000	0.635265	341.453
314.4000	0.600833	341.342
314.3000	0.613066	341.242
314.2000	0.541266	341.137
314.1000	0.424631	341.029
314.0000	0.302779	340.929
313.9000	0.206334	340.833
313.8000	0.114828	340.731
313.7000	0.120145	340.637
313.6000	0.161282	340.537
313.5000	0.190677	340.441
313.4000	0.291487	340.345
313.3000	0.352917	340.265
313.2000	0.330753	340.191
313.1000	0.316818	340.104
313.0000	0.35752	340.024
312.9000	0.339978	339.946
312.8000	0.384149	339.861
312.7000	0.376274	339.786
312.6000	0.40616	339.701
312.5000	0.430103	339.631
312.4000	0.535771	339.561
312.3000	0.611099	339.491
312.2000	0.64321	339.414
312.1000	0.667595	339.333
312.0000	0.650365	339.254
311.9000	0.663051	339.175
311.8000	0.671918	339.108
311.7000	0.670401	339.045
311.6000	0.706985	338.974
311.5000	0.743619	338.896
311.4000	0.709947	338.842
311.3000	0.692821	338.781
311.2000	0.695608	338.73
311.1000	0.705125	338.681
311.0000	0.781157	338.645
310.9000	0.829604	338.606
310.8000	0.832683	338.559
310.7000	0.834637	338.512
310.6000	0.879237	338.483
310.5000	0.96535	338.452
310.4000	1.08335	338.441
310.3000	1.0991	338.419
310.2000	1.09674	338.389
310.1000	1.12823	338.35
310.0000	1.09536	338.315
309.9000	1.0455	338.284
309.8000	1.03992	338.266
309.7000	1.08994	338.239
309.6000	1.04562	338.232
309.5000	1.0136	338.218
309.4000	1.02681	338.202
309.3000	1.02935	338.171
309.2000	1.07554	338.157
309.1000	1.10765	338.132
309.0000	1.03684	338.108
308.9000	0.992189	338.095
308.8000	0.94053	338.085
308.7000	0.840977	338.057
308.6000	0.851563	338.049
308.5000	0.860008	338.054
308.4000	0.888364	338.059
308.3000	0.89073	338.061
308.2000	0.914703	338.063
308.1000	0.917717	338.06
308.0000	0.939796	338.066
307.9000	0.951483	338.044
307.8000	0.919232	338.041
307.7000	0.895015	338.037
307.6000	0.854102	338.037
307.5000	0.846767	338.051
307.4000	0.885732	338.053
307.3000	0.942079	338.053
307.2000	1.0103	338.061
307.1000	1.06246	338.074
307.0000	1.13093	338.088
306.9000	1.07897	338.112
306.8000	1.08142	338.122
306.7000	1.04447	338.145
306.6000	1.07775	338.167
306.5000	1.13516	338.198
306.4000	1.09781	338.23
306.3000	1.06727	338.267
306.2000	1.14207	338.304
306.1000	1.17646	338.329
306.0000	1.16808	338.365
305.9000	1.16456	338.407
305.8000	1.14855	338.452
305.7000	1.12943	338.506
305.6000	1.08462	338.564
305.5000	1.03459	338.62
305.4000	0.997794	338.681
305.3000	0.982088	338.747
305.2000	0.94841	338.821
305.1000	0.893788	338.907
305.0000	0.942807	338.988
304.9000	0.943481	339.071
304.8000	0.883208	339.155
304.7000	0.89389	339.231
304.6000	0.920241	339.317
304.5000	0.866812	339.407
304.4000	0.882805	339.505
304.3000	0.883551	339.593
304.2000	0.871902	339.689
304.1000	0.889189	339.791
304.0000	0.930122	339.911
303.9000	0.945639	340.022
303.8000	0.910715	340.155
303.7000	0.897739	340.268
303.6000	0.922218	340.395
303.5000	0.910602	340.511
303.4000	0.924898	340.626
303.3000	0.911211	340.751
303.2000	0.944037	340.875
303.1000	1.03566	341.004
303.0000	1.16819	341.139
302.9000	1.2512	341.281
302.8000	1.30242	341.433
302.7000	1.28181	341.577
302.6000	1.26878	341.732
302.5000	1.24112	341.881
302.4000	1.20786	342.036
302.3000	1.1916	342.2
302.2000	1.22123	342.362
302.1000	1.29245	342.518
302.0000	1.30868	342.69
301.9000	1.35824	342.86
301.8000	1.3959	343.037
301.7000	1.38515	343.226
301.6000	1.39874	343.421
301.5000	1.37402	343.622
301.4000	1.29927	343.829
301.3000	1.15365	344.015
301.2000	1.04917	344.218
301.1000	1.06014	344.426
301.0000	1.13681	344.652
300.9000	1.08964	344.869
300.8000	1.10987	345.095
300.7000	1.08902	345.319
300.6000	1.07164	345.52
300.5000	1.12568	345.737
300.4000	1.11677	345.966
300.3000	1.14523	346.183
300.2000	1.19169	346.42
300.1000	1.19963	346.656
300.0000	1.19572	346.879
299.9000	1.18562	347.112
299.8000	1.2203	347.346
299.7000	1.23122	347.579
299.6000	1.29739	347.83
299.5000	1.34824	348.082
299.4000	1.28505	348.337
299.3000	1.25744	348.588
299.2000	1.30198	348.857
299.1000	1.33724	349.128
299.0000	1.39709	349.399
298.9000	1.40277	349.686
298.8000	1.35	349.974
298.7000	1.35237	350.267
298.6000	1.3466	350.561
298.5000	1.31322	350.853
298.4000	1.36512	351.147
298.3000	1.41115	351.452
298.2000	1.37096	351.743
298.1000	1.37125	352.052
298.0000	1.31922	352.353
297.9000	1.25522	352.65
297.8000	1.33735	352.947
297.7000	1.42878	353.25
297.6000	1.44081	353.547
297.5000	1.43532	353.865
297.4000	1.30902	354.174
297.3000	1.28655	354.48
297.2000	1.23411	354.794
297.1000	1.21281	355.112
297.0000	1.23235	355.43
296.9000	1.21705	355.76
296.8000	1.18835	356.093
296.7000	1.1427	356.428
296.6000	1.11752	356.757
296.5000	1.07468	357.101
296.4000	1.01487	357.449
296.3000	1.09368	357.812
296.2000	1.1156	358.18
296.1000	1.04492	358.568
296.0000	1.01179	358.95
295.9000	1.00714	359.329
295.8000	1.04288	359.699
295.7000	1.1285	360.083
295.6000	1.15276	360.479
295.5000	1.14286	360.867
295.4000	1.15289	361.259
295.3000	1.0863	361.648
295.2000	1.041	362.064
295.1000	1.08249	362.473
295.0000	1.07911	362.915
294.9000	1.09818	363.356
294.8000	1.18313	363.802
294.7000	1.25808	364.263
294.6000	1.22726	364.748
294.5000	1.21487	365.216
294.4000	1.18271	365.688
294.3000	1.16768	366.181
294.2000	1.13194	366.688
294.1000	1.10377	367.196
294.0000	1.1023	367.709
293.9000	1.10252	368.247
293.8000	1.0825	368.797
293.7000	1.06839	369.345
293.6000	1.02542	369.906
293.5000	0.932118	370.473
293.4000	0.795248	371.057
293.3000	0.737634	371.623
293.2000	0.739146	372.228
293.1000	0.669649	372.839
293.0000	0.643057	373.433
292.9000	0.615321	374.045
292.8000	0.597127	374.684
292.7000	0.539505	375.304
292.6000	0.472365	375.939
292.5000	0.430603	376.584
292.4000	0.338564	377.246
292.3000	0.194258	377.899
292.2000	0.133885	378.552
292.1000	0.0291275	379.203
292.0000	0.0161972	379.851
291.9000	0.0563507	380.507
291.8000	0.0418015	381.147
291.7000	0.0905258	381.787
291.6000	0.0492966	382.444
291.5000	-0.0249542	383.081
291.4000	-0.0899628	383.698
291.3000	-0.193263	384.316
291.2000	-0.261964	384.919
291.1000	-0.265675	385.504
291.0000	-0.278375	386.096
290.9000	-0.162584	386.669
290.8000	-0.191835	387.22
290.7000	-0.183981	387.759
290.6000	-0.110274	388.277
290.5000	-0.0351334	388.792
290.4000	-0.0751892	389.297
290.3000	-0.0753342	389.794
290.2000	-0.0388397	390.26
290.1000	-0.00920563	390.742
290.0000	-0.0738007	391.182
289.9000	-0.101613	391.607
289.8000	-0.073526	392.005
289.7000	-0.122371	392.398
289.6000	-0.0198044	392.789
289.5000	0.0354614	393.152
289.4000	0.153799	393.518
289.3000	0.183417	393.877
289.2000	0.215332	394.205
289.1000	0.412683	394.539
289.0000	0.548529	394.864
288.9000	0.58656	395.198
288.8000	0.751569	395.51
288.7000	0.928926	395.821
288.6000	1.06459	396.115
288.5000	1.09891	396.393
288.4000	1.12686	396.67
288.3000	1.16356	396.947
288.2000	1.27585	397.239
288.1000	1.33616	397.548
288.0000	1.39879	397.848
287.9000	1.40811	398.158
287.8000	1.36463	398.484
287.7000	1.24423	398.806
287.6000	1.18618	399.141
287.5000	1.09495	399.498
287.4000	0.976765	399.85
287.3000	0.973578	400.211
287.2000	1.01699	400.574
287.1000	0.899208	400.968
287.0000	0.803659	401.363
286.9000	0.72841	401.781
286.8000	0.892815	402.216
286.7000	1.02771	402.648
286.6000	1.00862	403.082
286.5000	0.893626	403.529
286.4000	0.873238	403.992
286.3000	0.756923	404.452
286.2000	0.75625	404.916
286.1000	0.821014	405.386
286.0000	0.953954	405.864
285.9000	1.05456	406.343
285.8000	1.18098	406.829
285.7000	1.28048	407.353
285.6000	1.28745	407.91
285.5000	1.32853	408.437
285.4000	1.40735	408.954
285.3000	1.42941	409.486
285.2000	1.2592	410.018
285.1000	1.00444	410.564
285.0000	0.823102	411.12
284.9000	0.750407	411.659
284.8000	0.743774	412.175
284.7000	0.765956	412.699
284.6000	0.767561	413.223
284.5000	0.710034	413.746
284.4000	0.555037	414.253
284.3000	0.357222	414.767
284.2000	0.178755	415.281
284.1000	0.00112915	415.754
284.0000	-0.1396	416.177
283.9000	-0.265138	416.594
283.8000	-0.368564	417.01
283.7000	-0.396587	417.424
283.6000	-0.357803	417.857
283.5000	-0.230034	418.263
283.4000	-3.05176E-006	418.643
283.3000	0.0842453	419.027
283.2000	0.0798203	419.408
283.1000	0.173232	419.783
283.0000	0.366562	420.142
282.9000	0.522914	420.485
282.8000	0.697368	420.838
282.7000	0.97242	421.175
282.6000	1.11785	421.488
282.5000	1.27987	421.813
282.4000	1.33712	422.131
282.3000	1.32862	422.428
282.2000	1.50963	422.716
282.1000	1.58768	423.006
282.0000	1.6185	423.278
281.9000	1.60357	423.492
281.8000	1.58337	423.709
281.7000	1.71648	423.916
281.6000	1.94746	424.136
281.5000	2.02779	424.351
281.4000	2.05985	424.566
281.3000	1.9861	424.759
281.2000	1.98998	424.949
281.1000	2.08749	425.121
281.0000	2.02222	425.296
280.9000	2.04699	425.448
280.8000	2.05438	425.599
280.7000	2.09229	425.76
280.6000	2.02866	425.924
280.5000	1.94801	426.081
280.4000	2.01187	426.228
280.3000	2.15649	426.381
280.2000	2.40068	426.547
280.1000	2.44342	426.716
280.0000	2.41587	426.864
279.9000	2.42231	427.009
279.8000	2.4583	427.145
279.7000	2.43373	427.299
279.6000	2.42813	427.436
279.5000	2.20415	427.56
279.4000	2.16006	427.68
279.3000	2.26663	427.788
279.2000	2.33452	427.898
279.1000	2.46579	428.033
279.0000	2.57925	428.173
278.9000	2.65215	428.313
278.8000	2.72797	428.422
278.7000	2.86964	428.538
278.6000	2.89311	428.645
278.5000	2.87939	428.752
278.4000	2.98624	428.863
278.3000	3.02713	428.949
278.2000	3.17246	429.03
278.1000	3.38152	429.101
278.0000	3.49063	429.19
277.9000	3.70385	429.273
277.8000	4.01361	429.378
277.7000	4.09614	429.494
277.6000	4.15415	429.603
277.5000	4.17641	429.7
277.4000	4.19505	429.784
277.3000	4.34485	429.868
277.2000	4.49506	429.961
277.1000	4.63319	430.068
277.0000	4.74522	430.155
276.9000	4.90816	430.232
276.8000	4.95442	430.31
276.7000	5.04251	430.412
276.6000	5.17883	430.521
276.5000	5.23828	430.627
276.4000	5.34593	430.736
276.3000	5.42209	430.826
276.2000	5.32641	430.933
276.1000	5.30363	431.033
276.0000	5.40052	431.135
275.9000	5.3896	431.238
275.8000	5.42714	431.345
275.7000	5.3998	431.43
275.6000	5.33045	431.525
275.5000	5.34703	431.612
275.4000	5.22386	431.721
275.3000	5.15175	431.846
275.2000	5.24232	431.953
275.1000	5.36292	432.051
275.0000	5.45406	432.126
274.9000	5.49013	432.23
274.8000	5.45415	432.337
274.7000	5.44835	432.432
274.6000	5.63	432.534
274.5000	5.936	432.628
274.4000	6.06348	432.706
274.3000	6.26063	432.785
274.2000	6.4064	432.867
274.1000	6.54011	432.945
274.0000	6.75686	433.016
273.9000	7.01936	433.064
273.8000	7.09813	433.12
273.7000	7.26346	433.164
273.6000	7.36482	433.226
273.5000	7.29929	433.284
273.4000	7.34923	433.334
273.3000	7.50426	433.356
273.2000	7.56818	433.361
273.1000	7.60658	433.383
273.0000	7.48606	433.42
272.9000	7.476	433.455
272.8000	7.49275	433.466
272.7000	7.4477	433.496
272.6000	7.45116	433.53
272.5000	7.57851	433.564
272.4000	7.77012	433.614
272.3000	7.79981	433.676
272.2000	7.77831	433.717
272.1000	7.67671	433.734
272.0000	7.59552	433.748
271.9000	7.50221	433.766
271.8000	7.51858	433.813
271.7000	7.43121	433.872
271.6000	7.39524	433.914
271.5000	7.48409	433.943
271.4000	7.45656	433.941
271.3000	7.45918	433.922
271.2000	7.30797	433.916
271.1000	7.33147	433.932
271.0000	7.50574	433.954
270.9000	7.54724	433.974
270.8000	7.57065	433.924
270.7000	7.62994	433.882
270.6000	7.69033	433.862
270.5000	7.83548	433.871
270.4000	8.01098	433.878
270.3000	8.18016	433.902
270.2000	8.45629	433.932
270.1000	8.5338	433.935
270.0000	8.5684	433.995
269.9000	8.42838	434.067
269.8000	8.25975	434.137
269.7000	8.34468	434.22
269.6000	8.44729	434.322
269.5000	8.41262	434.365
269.4000	8.28263	434.394
269.3000	8.17997	434.422
269.2000	8.12152	434.491
269.1000	8.09847	434.566
269.0000	8.01412	434.651
268.9000	8.02061	434.751
268.8000	8.08277	434.823
268.7000	8.02104	434.9
268.6000	7.91021	434.964
268.5000	7.81565	435.018
268.4000	7.77718	435.051
268.3000	7.68428	435.08
268.2000	7.82767	435.117
268.1000	8.0701	435.132
268.0000	8.04606	435.134
267.9000	8.0203	435.127
267.8000	7.95355	435.169
267.7000	7.98525	435.17
267.6000	8.09861	435.14
267.5000	8.21257	435.1
267.4000	8.16124	435.11
267.3000	8.06833	435.058
267.2000	7.96787	435.028
267.1000	7.92649	434.989
267.0000	8.08293	434.928
266.9000	8.10869	434.849
266.8000	8.15411	434.783
266.7000	8.29964	434.702
266.6000	8.44769	434.63
266.5000	8.46181	434.603
266.4000	8.65751	434.579
266.3000	9.07079	434.567
266.2000	9.33679	434.542
266.1000	9.65931	434.568
266.0000	9.78905	434.591
265.9000	9.76167	434.622
265.8000	9.78808	434.666
265.7000	9.97501	434.682
265.6000	10.4192	434.701
265.5000	10.6169	434.675
265.4000	10.71	434.681
265.3000	10.6876	434.712
265.2000	10.9459	434.804
265.1000	11.1207	434.851
265.0000	11.1143	434.91
264.9000	11.189	434.944
264.8000	11.1842	434.972
264.7000	10.9865	434.996
264.6000	10.7269	434.993
264.5000	10.454	435.008
264.4000	10.3369	434.995
264.3000	10.3286	435.003
264.2000	10.4059	434.974
264.1000	10.5643	434.927
264.0000	10.5158	434.879
263.9000	10.2086	434.858
263.8000	10.0348	434.858
263.7000	10.0561	434.863
263.6000	10.0488	434.8
263.5000	9.76424	434.707
263.4000	9.58123	434.628
263.3000	9.59622	434.529
263.2000	9.6378	434.434
263.1000	9.73565	434.337
263.0000	9.8281	434.229
262.9000	9.91271	434.152
262.8000	10.0196	434.066
262.7000	10.0044	433.985
262.6000	9.92512	433.887
262.5000	9.90192	433.792
262.4000	9.84239	433.727
262.3000	9.69034	433.678
262.2000	9.81646	433.632
262.1000	9.83843	433.546
262.0000	9.92444	433.452
261.9000	10.1775	433.4
261.8000	10.3083	433.391
261.7000	10.4132	433.392
261.6000	10.4858	433.385
261.5000	10.4069	433.396
261.4000	10.468	433.406
261.3000	10.5443	433.42
261.2000	10.6966	433.412
261.1000	10.7842	433.404
261.0000	10.8719	433.389
260.9000	10.8971	433.422
260.8000	10.7979	433.476
260.7000	10.887	433.472
260.6000	11.0386	433.482
260.5000	11.0152	433.508
260.4000	11.1516	433.561
260.3000	11.2131	433.622
260.2000	11.2887	433.648
260.1000	11.3982	433.669
260.0000	11.3199	433.72
259.9000	11.2873	433.772
259.8000	11.1819	433.813
259.7000	11.1335	433.827
259.6000	11.1502	433.9
259.5000	11.1216	433.971
259.4000	11.09	434.074
259.3000	11.2212	434.191
259.2000	11.423	434.263
259.1000	11.6072	434.327
259.0000	11.7221	434.43
258.9000	11.8351	434.495
258.8000	11.8508	434.514
258.7000	11.6243	434.502
258.6000	11.5073	434.519
258.5000	11.2692	434.495
258.4000	11.1456	434.473
258.3000	11.1576	434.406
258.2000	11.1024	434.378
258.1000	11.1773	434.361
258.0000	11.0448	434.332
257.9000	10.9658	434.237
257.8000	10.8852	434.176
257.7000	10.8666	434.029
257.6000	10.7042	433.888
257.5000	10.5685	433.795
257.4000	10.3841	433.661
257.3000	10.2529	433.562
257.2000	10.0016	433.456
257.1000	9.96565	433.379
257.0000	10.0494	433.289
256.9000	10.1456	433.222
256.8000	10.183	433.186
256.7000	10.323	433.14
256.6000	10.511	433.093
256.5000	10.639	433.011
256.4000	10.635	432.937
256.3000	10.7801	432.863
256.2000	10.9965	432.796
256.1000	11.1326	432.723
256.0000	11.1236	432.696
255.9000	11.0039	432.644
255.8000	10.855	432.629
255.7000	10.8324	432.624
255.6000	10.717	432.592
255.5000	10.7071	432.567
255.4000	10.6333	432.558
255.3000	10.5336	432.555
255.2000	10.4773	432.57
255.1000	10.3463	432.57
255.0000	10.2361	432.578
254.9000	10.1179	432.586
254.8000	10.1561	432.617
254.7000	10.2464	432.66
254.6000	10.1894	432.721
254.5000	10.0331	432.769
254.4000	9.88465	432.821
254.3000	9.90463	432.877
254.2000	10.1981	432.951
254.1000	10.382	433.016
254.0000	10.5356	433.107
253.9000	10.7421	433.205
253.8000	10.7954	433.311
253.7000	10.7954	433.424
253.6000	10.7557	433.506
253.5000	10.7867	433.554
253.4000	10.8645	433.625
253.3000	10.9172	433.724
253.2000	10.8026	433.817
253.1000	10.7404	433.907
253.0000	10.7535	433.968
252.9000	10.9237	434.044
252.8000	11.0243	434.094
252.7000	10.9823	434.158
252.6000	10.9766	434.239
252.5000	11.0032	434.357
252.4000	10.9223	434.417
252.3000	10.8167	434.482
252.2000	10.8826	434.54
252.1000	10.8718	434.599
252.0000	10.9732	434.677
251.9000	10.9914	434.756
251.8000	11.1406	434.858
251.7000	11.3351	434.963
251.6000	11.3732	435.069
251.5000	11.3919	435.133
251.4000	11.1902	435.215
251.3000	10.8972	435.304
251.2000	10.498	435.398
251.1000	10.277	435.496
251.0000	10.3755	435.589
250.9000	10.1684	435.676
250.8000	9.82264	435.751
250.7000	9.57313	435.84
250.6000	9.41619	435.938
250.5000	9.14291	436.081
250.4000	8.92492	436.197
250.3000	8.74967	436.356
250.2000	8.4708	436.527
250.1000	8.0558	436.671
250.0000	7.642	436.794
249.9000	7.286	436.94
249.8000	7.01401	437.136
249.7000	6.79171	437.355
249.6000	6.72226	437.585
249.5000	6.75039	437.821
249.4000	6.73844	438.042
249.3000	6.56243	438.26
249.2000	6.44347	438.462
249.1000	6.55135	438.685
249.0000	6.26257	438.929
248.9000	5.92279	439.182
248.8000	5.8016	439.477
248.7000	5.85241	439.746
248.6000	5.7752	440.008
248.5000	5.58763	440.277
248.4000	5.29053	440.557
248.3000	4.89209	440.867
248.2000	4.70508	441.2
248.1000	4.53308	441.537
248.0000	4.07911	441.845
247.9000	3.64616	442.186
247.8000	3.08843	442.571
247.7000	2.64022	442.978
247.6000	2.25897	443.386
247.5000	1.76272	443.82
247.4000	1.07415	444.261
247.3000	0.645271	444.69
247.2000	0.248543	445.097
247.1000	-0.312419	445.517
247.0000	-1.06172	445.996
246.9000	-1.92178	446.505
246.8000	-2.56566	447.02
246.7000	-3.03356	447.537
246.6000	-3.52257	448.062
246.5000	-4.14412	448.645
246.4000	-4.76213	449.178
246.3000	-5.42041	449.715
246.2000	-6.17541	450.234
246.1000	-7.02036	450.755
246.0000	-8.13681	451.301
245.9000	-9.15784	451.85
245.8000	-9.96701	452.408
245.7000	-10.6372	452.991
245.6000	-11.212	453.627
245.5000	-11.9886	454.258
245.4000	-13.0802	454.913
245.3000	-14.3944	455.541
245.2000	-15.4551	456.181
245.1000	-16.6304	456.846
245.0000	-17.9963	457.529
244.9000	-19.3545	458.234
244.8000	-20.5761	458.922
244.7000	-21.7183	459.675
244.6000	-22.8599	460.477
244.5000	-24.0437	461.32
244.4000	-25.3946	462.181
244.3000	-26.5717	463.08
244.2000	-27.933	463.99
244.1000	-29.2879	464.938
244.0000	-30.924	465.868
243.9000	-32.5357	466.842
243.8000	-34.096	467.841
243.7000	-35.5693	468.865
243.6000	-36.7305	469.909
243.5000	-38.0797	470.992
243.4000	-39.3222	472.113
243.3000	-40.6181	473.233
243.2000	-42.2089	474.369
243.1000	-43.9423	475.541
243.0000	-45.7133	476.748
242.9000	-47.6446	477.968
242.8000	-49.4922	479.2
242.7000	-51.162	480.471
242.6000	-52.8998	481.783
242.5000	-54.8582	483.118
242.4000	-56.8281	484.468
242.3000	-58.8956	485.866
242.2000	-61.2183	487.306
242.1000	-63.3461	488.782
242.0000	-65.4995	490.29
241.9000	-67.9056	491.849
241.8000	-70.1313	493.434
241.7000	-72.6354	495.042
241.6000	-75.1309	496.719
241.5000	-77.7454	498.464
241.4000	-80.4261	500.21
241.3000	-83.2578	502.005
241.2000	-85.8975	503.894
241.1000	-88.7341	505.811
241.0000	-91.8436	507.739
240.9000	-95.3536	509.72
240.8000	-98.5343	511.739
240.7000	-101.619	513.81
240.6000	-104.579	515.927
240.5000	-107.592	518.084
240.4000	-110.488	520.303
240.3000	-113.704	522.561
240.2000	-116.915	524.843
240.1000	-120.535	527.203
240.0000	-123.991	529.661
239.9000	-127.198	532.149
239.8000	-130.602	534.716
239.7000	-133.774	537.352
239.6000	-137.372	540.029
239.5000	-141.358	542.734
239.4000	-145.45	545.495
239.3000	-149.42	548.328
239.2000	-153.225	551.242
239.1000	-157.067	554.212
239.0000	-161.111	557.293
238.9000	-165.38	560.442
238.8000	-169.585	563.657
238.7000	-173.543	566.934
238.6000	-177.155	570.327
238.5000	-180.617	573.802
238.4000	-183.613	577.307
238.3000	-186.566	580.871
238.2000	-189.304	584.476
238.1000	-191.919	588.158
238.0000	-194.145	591.902
237.9000	-195.728	595.696
237.8000	-197.079	599.656
237.7000	-197.885	603.685
237.6000	-198.59	607.807
237.5000	-199.249	612.022
237.4000	-199.769	616.303
237.3000	-200	620.659
237.2000	-200	625.07
237.1000	-200	629.549
237.0000	-200	634.097
236.9000	-200	638.725
236.8000	-200	643.416
236.7000	-200	648.206
236.6000	-200	653.095
236.5000	-200	658.066
236.4000	-200	663.117
236.3000	-200	668.293
236.2000	-200	673.528
236.1000	-200	678.815
236.0000	-200	684.216
235.9000	-200	689.665
235.8000	-200	695.174
235.7000	-200	700.736
235.6000	-200	706.345
235.5000	-200	711.999
235.4000	-200	717.731
235.3000	-200	723.51
235.2000	-200	729.34
235.1000	-200	735.186
235.0000	-200	741.084
234.9000	-200	746.945
234.8000	-200	752.84
234.7000	-200	758.699
234.6000	-200	764.533
234.5000	-200	770.36
234.4000	-200	776.172
234.3000	-200	781.895
234.2000	-200	787.552
234.1000	-200	793.112
234.0000	-200	798.589
233.9000	-200	804.006
233.8000	-199.617	809.307
233.7000	-199.537	811.945
233.6000	-195.743	803.172
233.5000	-194.495	811.093
233.4000	-193.599	818.901
233.3000	-193.599	826.426
233.2000	-192.352	833.717
233.1000	-185.416	840.285
233.0000	-175.898	831.613
232.9000	-175.439	839.818
232.8000	-175.421	848.103
232.7000	-171.45	856.176
232.6000	-169.074	863.956
232.5000	-169.072	871.49
232.4000	-167.073	878.81
232.3000	-161.574	883.064
232.2000	-152.683	870.113
232.1000	-142.311	873.363
232.0000	-137.851	886.863
231.9000	-139.991	893.331
231.8000	-133.2	892.132
231.7000	-124.944	890.742
231.6000	-121.506	889.993
231.5000	-119.34	889.356
231.4000	-115.976	895.789
231.3000	-107.456	904.028
231.2000	-93.8613	901.777
231.1000	-83.7832	899.19
231.0000	-75.6944	896.857
230.9000	-64.8533	894.748
230.8000	-54.5584	892.772
230.7000	-42.204	891.027
230.6000	-36.4885	901.682
230.5000	-38.5333	911.264
230.4000	-39.7888	913.41
230.3000	-31.7882	905.607
230.2000	-24.4488	905.169
230.1000	-17.6237	905.303
230.0000	-10.776	904.847
229.9000	-1.15351	903.574
229.8000	7.65804	902.333
229.7000	10.3256	900.317
229.6000	10.1236	899.052
229.5000	12.7987	896.842
229.4000	18.2884	895.362
229.3000	20.6925	893.345
229.2000	27.0541	891.051
229.1000	26.9326	888.282
229.0000	18.6696	885.871
228.9000	11.2061	883.496
228.8000	16.2879	880.16
228.7000	23.5249	876.718
228.6000	29.0371	884.995
228.5000	27.6769	883.239
228.4000	27.6083	882.296
228.3000	33.2609	881.519
228.2000	35.3121	881.404
228.1000	30.9475	881.068
228.0000	26.0926	880.698
227.9000	23.0672	879.784
227.8000	21.5149	879.577
227.7000	15.7004	879.427
227.6000	11.7678	879.497
227.5000	5.89916	879.809
227.4000	-3.34159	879.512
227.3000	-4.95467	879.272
227.2000	-3.14004	879.475
227.1000	-12.6238	880.467
227.0000	-20.9339	880.468
226.9000	-23.7484	881.86
226.8000	-23.1937	883.222
226.7000	-30.6369	883.932
226.6000	-38.408	885.037
226.5000	-40.0472	885.83
226.4000	-36.8409	886.887
226.3000	-37.7593	888.092
226.2000	-43.6385	888.967
226.1000	-46.2227	890.104
226.0000	-46.199	890.686
225.9000	-42.5858	891.17
225.8000	-43.6929	891.536
225.7000	-28.7131	892.543
225.6000	-20.6583	892.783
225.5000	-12.5218	893.293
225.4000	-15.2545	894.086
225.3000	-17.5685	894.516
225.2000	-28.6317	894.911
225.1000	-29.1117	895.413
225.0000	-20.3763	896.058
224.9000	-11.5796	896.37
224.8000	-4.55746	896.741
224.7000	2.33879	896.852
224.6000	6.09353	896.702
224.5000	11.6284	896.882
224.4000	18.1747	896.97
224.3000	18.658	896.912
224.2000	23.1217	896.953
224.1000	29.8773	897.309
224.0000	28.6483	897.336
223.9000	33.4091	897.861
223.8000	34.9696	897.582
223.7000	42.1837	897.683
223.6000	47.5111	897.706
223.5000	59.6103	897.901
223.4000	56.6928	897.636
223.3000	48.5355	897.512
223.2000	42.5904	897.396
223.1000	39.0798	896.898
223.0000	32.3195	896.719
222.9000	27.9087	896.311
222.8000	24.0772	896.103
222.7000	18.7033	895.599
222.6000	16.3407	895.527
222.5000	15.3217	895.188
222.4000	11.862	894.539
222.3000	8.24504	893.74
