TITLE	
DATA TYPE	
ORIGIN	JASCO
OWNER	
DATE	16/04/28
TIME	14:41:47
SPECTROMETER/DATA SYSTEM	JASCO Corp., J-810, Rev. 1.00
RESOLUTION	
DELTAX	-0.2
XUNITS	NANOMETERS
YUNITS	CD[mdeg]
Y2UNITS	HT[V]
Y3UNITS	External[V]
FIRSTX	350.0000
LASTX	240.0000
NPOINTS	551
FIRSTY	-0.97286
MAXY	7.58274
MINY	-92.47611
XYDATA
350.0000	-0.972857	362.352	0.00878312
349.8000	-0.819261	362.039	0.00875142
349.6000	-0.675913	361.738	0.00871982
349.4000	-0.535089	361.435	0.00868735
349.2000	-0.512395	361.118	0.00864963
349.0000	-0.560272	360.815	0.00861479
348.8000	-0.573871	360.501	0.00857706
348.6000	-0.437518	360.191	0.0085434
348.4000	-0.406141	359.876	0.00850651
348.2000	-0.415513	359.551	0.00846768
348.0000	-0.393407	359.249	0.00843281
347.8000	-0.480499	358.94	0.00839504
347.6000	-0.584351	358.634	0.00835769
347.4000	-0.686037	358.322	0.00831839
347.2000	-0.679123	358.012	0.00828338
347.0000	-0.784391	357.703	0.00824803
346.8000	-0.743091	357.387	0.00821295
346.6000	-0.723798	357.082	0.00817907
346.4000	-0.792293	356.764	0.00814376
346.2000	-0.830465	356.456	0.00810837
346.0000	-0.773074	356.143	0.00807353
345.8000	-0.593062	355.83	0.00804235
345.6000	-0.507876	355.537	0.00801015
345.4000	-0.439182	355.24	0.00797832
345.2000	-0.484353	354.943	0.0079441
345.0000	-0.523008	354.624	0.00790966
344.8000	-0.566599	354.319	0.00787512
344.6000	-0.523769	354.005	0.00784165
344.4000	-0.46578	353.688	0.00780794
344.2000	-0.4177	353.375	0.00777331
344.0000	-0.388677	353.064	0.00774005
343.8000	-0.33606	352.748	0.0077049
343.6000	-0.376852	352.426	0.00766825
343.4000	-0.322128	352.121	0.00763471
343.2000	-0.215325	351.818	0.00760184
343.0000	-0.16994	351.511	0.00756624
342.8000	-0.107453	351.206	0.00753441
342.6000	-0.135553	350.904	0.00749817
342.4000	-0.177282	350.594	0.00746111
342.2000	-0.122557	350.293	0.00742805
342.0000	-0.0643509	349.987	0.00739507
341.8000	0.0319331	349.683	0.00736194
341.6000	-0.0279872	349.38	0.00732855
341.4000	0.055246	349.065	0.00729518
341.2000	0.0877436	348.761	0.00725945
341.0000	0.0142365	348.471	0.00722699
340.8000	0.0646083	348.164	0.00719367
340.6000	0.0205373	347.847	0.00715994
340.4000	0.0158168	347.538	0.00712376
340.2000	-0.0287191	347.239	0.00709019
340.0000	0.0287593	346.94	0.00705763
339.8000	0.0109131	346.64	0.00702536
339.6000	0.0100418	346.34	0.00699408
339.4000	0.073793	346.035	0.00695928
339.2000	0.107195	345.729	0.00692527
339.0000	0.108502	345.436	0.00689185
338.8000	0.135592	345.15	0.00685838
338.6000	0.112688	344.846	0.00682368
338.4000	0.153681	344.537	0.00678705
338.2000	0.153962	344.236	0.00675222
338.0000	0.0251541	343.941	0.00671335
337.8000	-0.0532532	343.635	0.00667606
337.6000	-0.0336248	343.333	0.00663883
337.4000	-0.0594589	343.024	0.00660189
337.2000	-0.0513896	342.726	0.0065654
337.0000	0.0314077	342.436	0.00653164
336.8000	0.036761	342.141	0.00649837
336.6000	0.109144	341.84	0.0064631
336.4000	0.236756	341.551	0.00643294
336.2000	0.379189	341.253	0.00640075
336.0000	0.380535	340.964	0.00637027
335.8000	0.479627	340.673	0.00633688
335.6000	0.468641	340.385	0.0063053
335.4000	0.506637	340.095	0.00627299
335.2000	0.6118	339.807	0.00624162
335.0000	0.610244	339.532	0.00620987
334.8000	0.565255	339.244	0.00617789
334.6000	0.585943	338.982	0.00614846
334.4000	0.620762	338.71	0.00611905
334.2000	0.556183	338.444	0.0060898
334.0000	0.57667	338.17	0.00606086
333.8000	0.617011	337.896	0.00603113
333.6000	0.625938	337.618	0.00600109
333.4000	0.587233	337.35	0.00597065
333.2000	0.531906	337.075	0.00594026
333.0000	0.511027	336.796	0.00590879
332.8000	0.474689	336.512	0.00587579
332.6000	0.48313	336.252	0.00584476
332.4000	0.482329	335.973	0.00581335
332.2000	0.464277	335.698	0.00578207
332.0000	0.439986	335.423	0.00574951
331.8000	0.389995	335.155	0.00571723
331.6000	0.504047	334.89	0.00568702
331.4000	0.521038	334.624	0.00565616
331.2000	0.535734	334.366	0.00562768
331.0000	0.562725	334.078	0.00559574
330.8000	0.642646	333.811	0.0055677
330.6000	0.662866	333.548	0.00553881
330.4000	0.677542	333.29	0.00551031
330.2000	0.726897	333.028	0.00548209
330.0000	0.678978	332.752	0.00545098
329.8000	0.705559	332.492	0.00542378
329.6000	0.805235	332.229	0.00539461
329.4000	0.805882	331.976	0.00536758
329.2000	0.730989	331.722	0.00533712
329.0000	0.705558	331.474	0.00530928
328.8000	0.774892	331.223	0.00528136
328.6000	0.751989	330.974	0.00525341
328.4000	0.715401	330.744	0.00522689
328.2000	0.669353	330.495	0.00519959
328.0000	0.62467	330.249	0.00517067
327.8000	0.6628	330.009	0.00514448
327.6000	0.704726	329.78	0.00511875
327.4000	0.734177	329.542	0.00509234
327.2000	0.689522	329.301	0.00506233
327.0000	0.700307	329.057	0.00503494
326.8000	0.728619	328.821	0.00500662
326.6000	0.803188	328.591	0.00498004
326.4000	0.818706	328.353	0.0049511
326.2000	0.815219	328.119	0.0049219
326.0000	0.782078	327.871	0.00489116
325.8000	0.796139	327.633	0.00486307
325.6000	0.869108	327.408	0.00483664
325.4000	0.834661	327.181	0.00480972
325.2000	0.841991	326.945	0.00478087
325.0000	0.890593	326.702	0.00475166
324.8000	0.892386	326.47	0.00472465
324.6000	0.911679	326.226	0.00469646
324.4000	0.889977	325.985	0.00466935
324.2000	0.925298	325.743	0.00464125
324.0000	0.92774	325.499	0.00461528
323.8000	0.964665	325.264	0.00458972
323.6000	1.0274	325.023	0.00456334
323.4000	1.01667	324.795	0.00453752
323.2000	1.0083	324.535	0.00450929
323.0000	0.984408	324.305	0.00448332
322.8000	0.989572	324.075	0.0044573
322.6000	1.03412	323.857	0.00443317
322.4000	1.02122	323.639	0.00440881
322.2000	1.00292	323.41	0.00438404
322.0000	1.05021	323.218	0.00436397
321.8000	1.05803	323.025	0.00434359
321.6000	1.09505	322.856	0.00432368
321.4000	1.11919	322.686	0.00430553
321.2000	1.16755	322.522	0.00428873
321.0000	1.18872	322.363	0.00427162
320.8000	1.20413	322.224	0.00425698
320.6000	1.24083	322.083	0.00424112
320.4000	1.23666	321.937	0.00422482
320.2000	1.20793	321.772	0.00420721
320.0000	1.23995	321.607	0.00418623
319.8000	1.28759	321.46	0.00417005
319.6000	1.30198	321.304	0.00415205
319.4000	1.30838	321.145	0.0041338
319.2000	1.32477	320.965	0.00411497
319.0000	1.33833	320.792	0.00409409
318.8000	1.35275	320.621	0.00407408
318.6000	1.4207	320.471	0.00405619
318.4000	1.44916	320.333	0.00404198
318.2000	1.44842	320.179	0.00402409
318.0000	1.4755	320.024	0.0040058
317.8000	1.48129	319.866	0.0039872
317.6000	1.43918	319.717	0.00396882
317.4000	1.48129	319.571	0.00395297
317.2000	1.47947	319.424	0.00393626
317.0000	1.5026	319.274	0.00391991
316.8000	1.46862	319.113	0.0038998
316.6000	1.54906	318.96	0.00388328
316.4000	1.63373	318.812	0.00386776
316.2000	1.66016	318.68	0.00385373
316.0000	1.6662	318.543	0.00383804
315.8000	1.67593	318.418	0.00382531
315.6000	1.67213	318.292	0.00381132
315.4000	1.70463	318.168	0.00379793
315.2000	1.70318	318.045	0.00378356
315.0000	1.67605	317.923	0.00377146
314.8000	1.59073	317.807	0.00375783
314.6000	1.51446	317.687	0.00374307
314.4000	1.53783	317.564	0.00372772
314.2000	1.56072	317.429	0.00371414
314.0000	1.59808	317.294	0.00369895
313.8000	1.59815	317.163	0.0036852
313.6000	1.59186	317.031	0.00366908
313.4000	1.59139	316.909	0.00365811
313.2000	1.56259	316.789	0.0036435
313.0000	1.59456	316.667	0.00363047
312.8000	1.61172	316.559	0.00361867
312.6000	1.67802	316.449	0.00360772
312.4000	1.72394	316.356	0.00359943
312.2000	1.70409	316.263	0.00358764
312.0000	1.69846	316.177	0.00357879
311.8000	1.74473	316.098	0.0035712
311.6000	1.80389	316.019	0.00356227
311.4000	1.87347	315.95	0.00355587
311.2000	1.88959	315.89	0.00354878
311.0000	1.84307	315.839	0.0035432
310.8000	1.77754	315.798	0.00353602
310.6000	1.8181	315.771	0.00353272
310.4000	1.84369	315.749	0.00352943
310.2000	1.87076	315.727	0.00352719
310.0000	1.87363	315.705	0.00352571
309.8000	1.83481	315.693	0.00352335
309.6000	1.83557	315.678	0.0035228
309.4000	1.86449	315.668	0.00352143
309.2000	1.91383	315.666	0.00352233
309.0000	1.90334	315.662	0.00352259
308.8000	1.91594	315.638	0.00351958
308.6000	1.89279	315.612	0.00351487
308.4000	1.8911	315.6	0.00351482
308.2000	1.89751	315.582	0.00351224
308.0000	1.89343	315.572	0.0035111
307.8000	1.90229	315.569	0.00350951
307.6000	1.92174	315.558	0.00351029
307.4000	1.90661	315.553	0.00350866
307.2000	1.88098	315.561	0.00351024
307.0000	1.87194	315.583	0.00351106
306.8000	1.9272	315.609	0.00351633
306.6000	1.90787	315.64	0.00351738
306.4000	1.92822	315.682	0.00352371
306.2000	1.8975	315.731	0.0035269
306.0000	1.84141	315.79	0.00353307
305.8000	1.83388	315.837	0.00353848
305.6000	1.85988	315.905	0.00354677
305.4000	1.92682	315.982	0.00355609
305.2000	1.92433	316.065	0.00356613
305.0000	1.98621	316.156	0.00357766
304.8000	2.04346	316.251	0.00358969
304.6000	2.0879	316.345	0.00359912
304.4000	2.14286	316.462	0.00361289
304.2000	2.12206	316.582	0.00362723
304.0000	2.11757	316.721	0.00364186
303.8000	2.04716	316.864	0.00365675
303.6000	2.02358	317.011	0.00367111
303.4000	1.96101	317.162	0.00368871
303.2000	1.90954	317.322	0.00370579
303.0000	1.83905	317.499	0.00372421
302.8000	1.8379	317.673	0.00374355
302.6000	1.88696	317.865	0.0037674
302.4000	1.93788	318.061	0.00378863
302.2000	2.05265	318.253	0.00381088
302.0000	2.04256	318.456	0.00383409
301.8000	2.05379	318.681	0.00385954
301.6000	2.04975	318.905	0.00388499
301.4000	2.1097	319.136	0.00391211
301.2000	2.14257	319.378	0.00394066
301.0000	2.14384	319.624	0.00396744
300.8000	2.06483	319.87	0.00399562
300.6000	2.04478	320.132	0.00402564
300.4000	2.01802	320.411	0.00405682
300.2000	2.05154	320.71	0.0040928
300.0000	2.06363	321.011	0.00412685
299.8000	2.00346	321.318	0.00416129
299.6000	1.88137	321.629	0.00419394
299.4000	1.81003	321.958	0.00423056
299.2000	1.77168	322.296	0.00426773
299.0000	1.73012	322.64	0.00430579
298.8000	1.73042	322.993	0.00434412
298.6000	1.70443	323.343	0.00438292
298.4000	1.64385	323.705	0.00442257
298.2000	1.63901	324.07	0.00446326
298.0000	1.67461	324.456	0.00450689
297.8000	1.71417	324.836	0.00455186
297.6000	1.70456	325.232	0.00459586
297.4000	1.73714	325.641	0.00464274
297.2000	1.70883	326.048	0.00468958
297.0000	1.65846	326.471	0.0047379
296.8000	1.65316	326.899	0.00478898
296.6000	1.67696	327.341	0.00484108
296.4000	1.62776	327.799	0.00489444
296.2000	1.61582	328.26	0.00494799
296.0000	1.56923	328.729	0.00500259
295.8000	1.58272	329.213	0.00506004
295.6000	1.56955	329.717	0.00511943
295.4000	1.55574	330.225	0.00517571
295.2000	1.44118	330.741	0.00523559
295.0000	1.31741	331.281	0.00529364
294.8000	1.29431	331.842	0.00535625
294.6000	1.24721	332.415	0.00541994
294.4000	1.22063	333.021	0.00548788
294.2000	1.10161	333.652	0.0055576
294.0000	1.1324	334.291	0.00562937
293.8000	1.0455	334.969	0.00570533
293.6000	0.928971	335.669	0.00578375
293.4000	0.986874	336.388	0.0058646
293.2000	0.970966	337.127	0.00594679
293.0000	0.905003	337.889	0.0060318
292.8000	0.896594	338.66	0.00611825
292.6000	0.845431	339.437	0.00620441
292.4000	0.744983	340.232	0.00629356
292.2000	0.693488	341.013	0.00638236
292.0000	0.750312	341.799	0.00647316
291.8000	0.751358	342.573	0.00656329
291.6000	0.651186	343.335	0.00664794
291.4000	0.587985	344.062	0.00673081
291.2000	0.522565	344.768	0.0068128
291.0000	0.522246	345.442	0.00689162
290.8000	0.510866	346.079	0.00696342
290.6000	0.568695	346.695	0.0070352
290.4000	0.523446	347.281	0.00709976
290.2000	0.55872	347.839	0.00716307
290.0000	0.581205	348.359	0.00722036
289.8000	0.580709	348.87	0.00727781
289.6000	0.67279	349.342	0.00733012
289.4000	0.725025	349.794	0.00738205
289.2000	0.833189	350.226	0.00743141
289.0000	0.848927	350.636	0.00747888
288.8000	0.829674	351.041	0.00752503
288.6000	0.926848	351.426	0.00757024
288.4000	0.956458	351.815	0.00761485
288.2000	1.07323	352.194	0.00765767
288.0000	1.05103	352.581	0.007703
287.8000	1.04831	352.975	0.00774717
287.6000	0.982515	353.394	0.00779287
287.4000	0.966928	353.825	0.00783937
287.2000	0.991095	354.283	0.00789098
287.0000	0.907602	354.779	0.0079453
286.8000	0.784832	355.303	0.00800068
286.6000	0.67278	355.833	0.008058
286.4000	0.705023	356.401	0.00812085
286.2000	0.69657	356.991	0.00818762
286.0000	0.778663	357.603	0.00825849
285.8000	0.782117	358.245	0.00833178
285.6000	0.822469	358.895	0.00840638
285.4000	0.871856	359.539	0.00848284
285.2000	0.885579	360.182	0.00855822
285.0000	0.980152	360.836	0.00863557
284.8000	1.01333	361.49	0.00870954
284.6000	0.976228	362.11	0.00877885
284.4000	0.88572	362.696	0.0088435
284.2000	0.921955	363.274	0.00890736
284.0000	0.959399	363.803	0.00896676
283.8000	0.951976	364.315	0.00902187
283.6000	1.00635	364.812	0.00907899
283.4000	1.06568	365.26	0.00912905
283.2000	1.06784	365.684	0.00917576
283.0000	1.12857	366.09	0.00922323
282.8000	1.25365	366.478	0.009269
282.6000	1.34804	366.839	0.009311
282.4000	1.28991	367.18	0.0093476
282.2000	1.30764	367.472	0.00938231
282.0000	1.31839	367.753	0.00941347
281.8000	1.33641	368.023	0.00944565
281.6000	1.34883	368.283	0.00947292
281.4000	1.37023	368.52	0.00950073
281.2000	1.40073	368.756	0.00952567
281.0000	1.41488	368.99	0.00955319
280.8000	1.50977	369.213	0.00957916
280.6000	1.53774	369.439	0.00960347
280.4000	1.63833	369.664	0.00962938
280.2000	1.74433	369.874	0.00965487
280.0000	1.78795	370.055	0.00967671
279.8000	1.85548	370.235	0.00969727
279.6000	1.96555	370.4	0.00971875
279.4000	2.14754	370.541	0.0097349
279.2000	2.08151	370.672	0.00974812
279.0000	2.07579	370.831	0.00976758
278.8000	2.08336	370.968	0.00978421
278.6000	2.10913	371.093	0.00979742
278.4000	2.17619	371.242	0.00981356
278.2000	2.23007	371.386	0.00983169
278.0000	2.2806	371.553	0.0098503
277.8000	2.2736	371.708	0.00986751
277.6000	2.39887	371.872	0.00988705
277.4000	2.51866	372.007	0.00990313
277.2000	2.60665	372.154	0.00992112
277.0000	2.70995	372.288	0.00993622
276.8000	2.80042	372.437	0.00995463
276.6000	2.98778	372.562	0.00997016
276.4000	3.16304	372.688	0.00998518
276.2000	3.29966	372.84	0.0100045
276.0000	3.41966	372.982	0.0100214
275.8000	3.57123	373.123	0.0100379
275.6000	3.71068	373.253	0.010057
275.4000	3.84347	373.417	0.010076
275.2000	3.9048	373.547	0.0100932
275.0000	3.92278	373.692	0.010109
274.8000	3.90688	373.845	0.0101262
274.6000	3.89991	373.969	0.0101402
274.4000	3.83787	374.117	0.0101572
274.2000	3.86881	374.239	0.0101723
274.0000	3.93145	374.372	0.0101869
273.8000	3.95405	374.474	0.0102
273.6000	4.1282	374.567	0.0102114
273.4000	4.16623	374.656	0.0102225
273.2000	4.20744	374.726	0.0102301
273.0000	4.31543	374.786	0.0102383
272.8000	4.53829	374.806	0.0102447
272.6000	4.67486	374.828	0.0102494
272.4000	4.78501	374.849	0.0102525
272.2000	4.91943	374.876	0.0102586
272.0000	4.99274	374.928	0.0102662
271.8000	5.07718	374.979	0.0102721
271.6000	5.22114	375.011	0.010277
271.4000	5.22026	375.059	0.010284
271.2000	5.19252	375.129	0.0102919
271.0000	5.1594	375.202	0.0102998
270.8000	5.06066	375.306	0.0103102
270.6000	5.16169	375.394	0.0103199
270.4000	5.1783	375.485	0.0103287
270.2000	5.18843	375.588	0.0103389
270.0000	5.19959	375.727	0.0103558
269.8000	5.17327	375.869	0.0103726
269.6000	5.26024	376.011	0.0103906
269.4000	5.33264	376.168	0.0104097
269.2000	5.44563	376.305	0.0104261
269.0000	5.48032	376.465	0.0104468
268.8000	5.46974	376.625	0.0104666
268.6000	5.43614	376.745	0.0104819
268.4000	5.54642	376.857	0.010496
268.2000	5.69609	376.961	0.0105106
268.0000	5.83385	377.069	0.010523
267.8000	5.7699	377.156	0.0105304
267.6000	5.82949	377.231	0.0105409
267.4000	5.76439	377.297	0.0105459
267.2000	5.70745	377.34	0.0105522
267.0000	5.87367	377.389	0.0105576
266.8000	5.98038	377.483	0.0105677
266.6000	6.01866	377.563	0.0105783
266.4000	6.05254	377.636	0.0105866
266.2000	6.23514	377.706	0.0105986
266.0000	6.37202	377.797	0.010609
265.8000	6.51894	377.899	0.0106214
265.6000	6.70984	378.023	0.0106371
265.4000	6.76283	378.148	0.0106514
265.2000	6.66235	378.255	0.0106657
265.0000	6.72639	378.346	0.0106731
264.8000	6.78397	378.456	0.0106867
264.6000	6.74107	378.591	0.0107016
264.4000	6.74376	378.717	0.0107148
264.2000	6.73344	378.786	0.0107222
264.0000	6.74899	378.85	0.0107283
263.8000	6.8225	378.927	0.0107398
263.6000	6.91924	379.01	0.0107489
263.4000	6.92796	379.071	0.0107557
263.2000	6.84837	379.103	0.0107584
263.0000	6.88698	379.115	0.0107592
262.8000	6.80233	379.141	0.0107623
262.6000	6.80249	379.223	0.0107708
262.4000	6.75991	379.289	0.0107774
262.2000	6.62784	379.342	0.0107826
262.0000	6.5561	379.37	0.0107839
261.8000	6.41372	379.422	0.0107891
261.6000	6.48782	379.504	0.0107992
261.4000	6.58954	379.627	0.010814
261.2000	6.80165	379.682	0.0108212
261.0000	6.74532	379.764	0.0108306
260.8000	6.7927	379.905	0.0108471
260.6000	6.89308	380.045	0.0108632
260.4000	6.90886	380.206	0.0108837
260.2000	7.02668	380.389	0.0109026
260.0000	7.16451	380.57	0.0109242
259.8000	7.03994	380.751	0.0109428
259.6000	7.04924	380.949	0.0109631
259.4000	7.06891	381.153	0.0109881
259.2000	7.16068	381.264	0.0109994
259.0000	7.22497	381.43	0.011018
258.8000	7.41195	381.566	0.0110337
258.6000	7.45613	381.695	0.0110477
258.4000	7.5292	381.795	0.0110632
258.2000	7.56351	381.85	0.0110669
258.0000	7.52079	381.92	0.0110753
257.8000	7.58274	381.958	0.0110789
257.6000	7.56829	382.025	0.0110873
257.4000	7.43343	382.033	0.0110876
257.2000	7.23605	382.003	0.0110808
257.0000	7.08853	381.985	0.0110768
256.8000	6.89966	381.986	0.0110748
256.6000	6.82933	381.998	0.0110753
256.4000	6.7663	382	0.0110745
256.2000	6.77823	381.999	0.0110753
256.0000	6.88742	382.014	0.011079
255.8000	7.00252	382.075	0.0110845
255.6000	7.05494	382.188	0.0110994
255.4000	7.04248	382.287	0.0111092
255.2000	7.03862	382.415	0.0111237
255.0000	6.99012	382.53	0.0111354
254.8000	6.9827	382.645	0.0111499
254.6000	7.00623	382.796	0.0111674
254.4000	6.77971	382.976	0.0111849
254.2000	6.59656	383.167	0.0112065
254.0000	6.51555	383.315	0.0112212
253.8000	6.54842	383.505	0.0112437
253.6000	6.55376	383.706	0.0112648
253.4000	6.50972	383.925	0.0112907
253.2000	6.50721	384.156	0.0113167
253.0000	6.36612	384.424	0.0113446
252.8000	6.27172	384.699	0.0113739
252.6000	6.21929	384.913	0.0113974
252.4000	6.11044	385.145	0.0114204
252.2000	5.96718	385.355	0.0114438
252.0000	5.77164	385.583	0.011469
251.8000	5.59318	385.78	0.0114882
251.6000	5.40615	386.025	0.0115136
251.4000	5.23107	386.254	0.011538
251.2000	5.10933	386.455	0.0115587
251.0000	4.96862	386.671	0.0115813
250.8000	4.75972	386.876	0.0116019
250.6000	4.50933	387.145	0.0116275
250.4000	4.39312	387.419	0.0116574
250.2000	4.11219	387.728	0.0116881
250.0000	3.89151	388.048	0.0117182
249.8000	3.58071	388.378	0.0117535
249.6000	3.22267	388.742	0.0117926
249.4000	2.81029	389.138	0.0118325
249.2000	2.37839	389.579	0.0118776
249.0000	1.95902	390.046	0.0119279
248.8000	1.44129	390.55	0.0119798
248.6000	0.952079	391.079	0.0120364
248.4000	0.316415	391.55	0.0120822
248.2000	-0.356848	392.038	0.0121336
248.0000	-1.11502	392.571	0.012182
247.8000	-1.80543	393.119	0.0122382
247.6000	-2.60392	393.695	0.0122915
247.4000	-3.26334	394.269	0.0123459
247.2000	-4.03147	394.877	0.0124031
247.0000	-4.84268	395.496	0.0124612
246.8000	-5.75967	396.187	0.0125273
246.6000	-6.64265	396.938	0.0125966
246.4000	-7.51478	397.676	0.0126684
246.2000	-8.57014	398.474	0.0127401
246.0000	-9.58947	399.303	0.012816
245.8000	-10.8825	400.152	0.0128928
245.6000	-12.255	401.056	0.0129707
245.4000	-13.6937	401.95	0.013046
245.2000	-15.1408	402.932	0.0131326
245.0000	-16.4653	403.917	0.0132208
244.8000	-18.0455	404.989	0.0133138
244.6000	-19.7374	406.075	0.0134051
244.4000	-21.5832	407.241	0.0135035
244.2000	-23.6164	408.437	0.0136005
244.0000	-25.4769	409.718	0.0137093
243.8000	-27.3992	411.064	0.0138247
243.6000	-29.6059	412.449	0.0139393
243.4000	-32.0075	413.9	0.014056
243.2000	-34.6106	415.433	0.0141789
243.0000	-37.204	417.048	0.014314
242.8000	-39.816	418.721	0.0144594
242.6000	-42.5447	420.452	0.0146113
242.4000	-45.507	422.283	0.0147718
242.2000	-48.7789	424.186	0.0149366
242.0000	-51.7789	426.168	0.0151174
241.8000	-55.1723	428.26	0.0153075
241.6000	-58.5519	430.42	0.0155077
241.4000	-62.2843	432.661	0.0157139
241.2000	-66.2864	435.022	0.0159311
241.0000	-70.3186	437.526	0.0161633
240.8000	-74.4207	440.136	0.0164012
240.6000	-78.53	442.829	0.0166525
240.4000	-82.9904	445.677	0.0169187
240.2000	-87.7586	448.635	0.0171875
240.0000	-92.4761	451.737	0.01747
